{
  "body": {
    "USUBJID": [
      "01-001",
      "01-001",
      "01-001",
      "",
      "01-001",
      "01-001",
      "01-001",
      "01-001",
      "01-001",
      "",
      "01-001",
      "01-001",
      "01-001",
      "",
      "01-002",
      "01-002",
      "01-002",
      "",
      "01-003",
      "01-003",
      "01-003",
      "",
      "01-003",
      "01-003",
      "",
      "01-004",
      "01-004",
      "01-004",
      ""
    ],
    ".sp1": [
      "",
      "",
      "",
      "",
      "",
      "",
      "",
      "",
      "",
      "",
      "",
      "",
      "",
      "",
      "",
      "",
      "",
      "",
      "",
      "",
      "",
      "",
      "",
      "",
      "",
      "",
      "",
      "",
      ""
    ],
    "AETERM": [
      "Headache/",
      "Headache",
      "",
      "",
      "Nausea and vomiting",
      "after the second",
      "infusion of study",
      "drug/",
      "Nausea",
      "",
      "Rash on both",
      "forearms/",
      "Rash maculo-papular",
      "",
      "Dizziness/",
      "Dizziness",
      "",
      "",
      "頭痛/",
      "頭痛",
      "",
      "",
      "Fatigue/",
      "Fatigue",
      "",
      "Hypertension",
      "",
      "",
      ""
    ],
    ".sp2": [
      "",
      "",
      "",
      "",
      "",
      "",
      "",
      "",
      "",
      "",
      "",
      "",
      "",
      "",
      "",
      "",
      "",
      "",
      "",
      "",
      "",
      "",
      "",
      "",
      "",
      "",
      "",
      "",
      ""
    ],
    "ASTDT": [
      "2024-01-",
      "03/",
      "2024-01-04",
      "",
      "2024-01-10",
      "",
      "",
      "",
      "",
      "",
      "2024-02-",
      "01/",
      "2024-02-15",
      "",
      "2024-01-",
      "20/",
      "2024-01-21",
      "",
      "2024-03-",
      "05/",
      "2024-03-07",
      "",
      "2024-03-06",
      "",
      "",
      "2024-04-",
      "01/",
      "2024-04-30",
      ""
    ],
    ".sp3": [
      "",
      "",
      "",
      "",
      "",
      "",
      "",
      "",
      "",
      "",
      "",
      "",
      "",
      "",
      "",
      "",
      "",
      "",
      "",
      "",
      "",
      "",
      "",
      "",
      "",
      "",
      "",
      "",
      ""
    ],
    "AESEV": [
      "MILD",
      "",
      "",
      "",
      "MODERATE",
      "",
      "",
      "",
      "",
      "",
      "MILD",
      "",
      "",
      "",
      "SEVERE",
      "",
      "",
      "",
      "MILD",
      "",
      "",
      "",
      "MILD",
      "",
      "",
      "MODERATE",
      "",
      "",
      ""
    ],
    ".rtf_record": [
      1,
      1,
      1,
      1,
      2,
      2,
      2,
      2,
      2,
      2,
      3,
      3,
      3,
      3,
      4,
      4,
      4,
      4,
      5,
      5,
      5,
      5,
      6,
      6,
      6,
      7,
      7,
      7,
      7
    ]
  },
  "body_names": ["USUBJID", ".sp1", "AETERM", ".sp2", "ASTDT", ".sp3", "AESEV", ".rtf_record"],
  "fit": [
    {
      "name": "USUBJID",
      "width": 12,
      "rel_width": 12,
      "label": "USUBJID"
    },
    {
      "name": "AETERM",
      "width": 86,
      "rel_width": 86,
      "label": "Reported Term/Preferred Term"
    },
    {
      "name": "ASTDT",
      "width": 12,
      "rel_width": 12,
      "label": "ASTDT/AENDT"
    },
    {
      "name": "AESEV",
      "width": 13,
      "rel_width": 13,
      "label": "AESEV"
    }
  ],
  "wraps": [
    {
      "stack": [
        ["Headac", "he/", "Mild/", "Resolv", "ed", "after", "two", "weeks", "of", "treatm", "ent"],
        ["Superc", "alifra", "gilist", "icexpi", "alidoc", "ious-", "term,", "long"],
        "",
        ["a/", "b/", "c"],
        ["Line", "one", "Line", "two/", "three"],
        ["頭痛/", "軽度の", "頭痛が", "続く"]
      ],
      "flow": [
        ["Headac", "he/", "Mild/", "Resolv", "ed", "after", "two", "weeks", "of", "treatm", "ent"],
        ["Superc", "alifra", "gilist", "icexpi", "alidoc", "ious-", "term,", "long"],
        "",
        "a/b/c",
        ["Line", "one", "Line", "two/", "three"],
        ["頭痛/", "軽度の", "頭痛が", "続く"]
      ]
    },
    {
      "stack": [
        ["Headache/", "Mild/", "Resolved", "after two", "weeks of", "treatment"],
        ["Supercalif", "ragilistic", "expialidoc", "ious-term,", "long"],
        "",
        ["a/", "b/", "c"],
        ["Line one", "Line two/", "three"],
        ["頭痛/", "軽度の頭痛", "が続く"]
      ],
      "flow": [
        ["Headache/", "Mild/", "Resolved", "after two", "weeks of", "treatment"],
        ["Supercalif", "ragilistic", "expialidoc", "ious-term,", "long"],
        "",
        "a/b/c",
        ["Line one", "Line two/", "three"],
        ["頭痛/", "軽度の頭痛", "が続く"]
      ]
    },
    {
      "stack": [
        ["Headache/", "Mild/", "Resolved after", "two weeks of", "treatment"],
        ["Supercalifragil", "isticexpialidoc", "ious-term, long"],
        "",
        ["a/", "b/", "c"],
        ["Line one", "Line two/", "three"],
        ["頭痛/", "軽度の頭痛が続", "く"]
      ],
      "flow": [
        ["Headache/Mild/", "Resolved after", "two weeks of", "treatment"],
        ["Supercalifragil", "isticexpialidoc", "ious-term, long"],
        "",
        "a/b/c",
        ["Line one", "Line two/three"],
        ["頭痛/", "軽度の頭痛が続", "く"]
      ]
    }
  ]
}
